Folder: Buranga_magmatic-hydrothermal_transition/Data/3-Raman/maps

Note: Data/3-Raman/maps/bu20-g-ff1-fi01_cls_burangaite.txt
#Imported=	29.03.2022 09:48:39
#Correction:Norma=	29.03.2022 10:00:12
#Data Range:Extract=	29.03.2022 10:00:58
#Math:AB=	29.03.2022 10:01:38
#Edit:Shape=	29.03.2022 10:02:49
#Edit:Shape=	29.03.2022 10:02:51
#Edit:Shape=	29.03.2022 10:02:53
#Edit:Shape=	29.03.2022 10:02:54
#Edit:Shape=	29.03.2022 10:02:56
#Edit:Shape=	29.03.2022 10:04:02
#Edit:Shape=	29.03.2022 10:04:05
#Edit:Shape=	29.03.2022 10:04:07
218.528	4.04269
223.094	4.94081
227.655	5.33676
232.217	6.34356
236.776	8.54494
241.331	9.54044
245.886	12.278
250.439	13.3913
254.987	12.6231
259.535	16.9029
264.081	21.1041
268.622	16.7338
273.164	9.20995
277.703	1.72753
282.238	0.417555
286.773	0.608099
291.305	1.26875
295.833	3.13299
300.362	3.20819
304.885	5.50484
309.409	7.84175
313.93	11.0126
318.448	15.5125
322.965	18.1296
327.477	20.643
331.99	23.8872
336.5	27.2981
341.007	30.3961
345.513	34.1299
350.014	38.4714
354.516	38.5909
359.013	37.8472
363.51	36.9866
368.005	34.5225
372.496	31.319
376.987	28.0183
381.473	25.768
385.96	24.6039
390.442	24.3988
394.923	26.4847
399.401	27.1936
403.879	26.7698
408.352	23.3333
412.825	20.6514
417.294	18.3128
421.763	16.3821
426.227	16.4342
430.692	18.1958
435.152	19.5155
439.612	20.6023
444.068	21.3146
448.524	21.873
452.976	22.8095
457.427	24.642
461.874	26.7091
466.32	28.7925
470.765	30.7292
475.205	31.7967
479.646	32.5473
484.083	32.9497
488.519	33.0473
492.951	31.0944
497.381	30.0728
501.811	29.5747
506.237	30.9563
510.663	34.6712
515.084	38.3322
519.504	41.6176
523.923	41.7347
528.338	39.3781
532.753	36.1036
537.164	32.0942
541.572	27.9526
545.981	23.6131
550.385	19.4318
554.788	15.3251
559.19	11.7106
563.588	9.35413
567.986	8.33061
572.38	9.89711
576.771	15.5391
581.163	24.1353
585.551	33.9126
589.936	47.7185
594.319	54.6951
598.702	55.6766
603.081	55.3855
607.458	51.0967
611.835	43.5588
616.208	36.2598
620.578	30.1433
624.949	25.0909
629.315	21.9579
633.68	20.1191
638.042	18.8264
642.404	17.5351
646.762	16.294
651.118	13.4396
655.472	11.3763
659.825	10.3327
664.175	9.38891
668.523	8.30099
672.868	7.04972
677.213	5.77533
681.555	4.80149
685.894	4.4608
690.231	5.12539
694.566	5.38601
698.901	5.34714
703.232	4.28503
707.561	3.10726
711.888	2.3453
716.212	1.47128
720.537	0.920046
724.858	0.483742
729.176	0.223765
733.493	0.178039
737.807	0.157116
742.119	0.114582
746.432	0.20618
750.74	0.0700847
755.046	-0.140489
759.35	-0.166967
763.652	-0.0278673
767.952	0.370469
772.25	1.43841
776.546	0.5007
780.842	1.71675
785.133	2.66388
789.423	2.66388
793.711	2.07274
797.997	2.07274
802.28	5.03886
806.562	4.9716
810.841	4.88977
815.119	4.74774
819.394	4.62322
823.668	4.5561
827.941	4.42352
832.211	4.20155
836.478	3.96828
840.743	3.68085
845.006	3.65221
849.268	3.74233
853.527	3.82616
857.784	3.91651
862.039	3.98204
866.293	4.1978
870.544	4.78086
874.793	5.53941
879.04	6.09386
883.285	6.36123
887.528	6.3676
891.769	6.08747
896.008	5.71823
900.246	5.84644
904.481	6.34945
908.714	7.342
912.945	8.55574
917.174	9.69731
921.401	10.8168
925.626	11.8625
929.849	12.5265


Note: Data/3-Raman/maps/bu20-G-ff1-FI01_CLS_burangaite_raw.txt
#Acq. time (s)=	1
#Accumulations=	1
#Range (cm-¹)=	100...4000
#Windows=	1
#Auto scanning=	Off
#Autofocus=	Off
#SWIFT=	On
#Macrospot=	Off
#AutoExposure=	Off
#Spike filter=	Off
#Delay time (s)=	0
#Binning=	1
#Readout mode=	Signal
#DeNoise=	Lite
#ICS correction=	Off
#Dark correction=	Off
#Inst. Process=	Off
#Detector temperature (°C)=	-60.09
#Instrument=	LabRAM HR Evol
#Detector=	SIN-EM FIVIS
#Objective=	x100_VIS
#Grating=	150 (500nm)
#ND Filter=	100%
#Laser=	532nm_Edge
#Hole=	30.0125
#Temperature=	0
#Range=	Visible
#StageXY=	75x50mm Scan+
#StageZ=	Z motor
#Z (µm)=	1887.6
#Full time(mm:ss)=	31:39
#Project=	Buranga
#Sample=	BU18FA20_G
#Site=	G_trl1
#Title=	20-G_trl1_MI01_topbb_1
#Remark=	
#Date=	30.07.2019 16:51
#Cursor=	Rectangle 9 points
#Y (µm)=	-10.8896 ... -8.3655
#X (µm)=	-8.60704 ... -6.60704
#Generated=	29.03.2022 09:29:50
103.656	445.466
108.278	372.007
112.899	320.416
117.517	291.026
122.131	264.006
126.744	233.276
131.355	189.705
135.964	150.735
140.571	116.494
145.173	90.2981
149.776	69.7826
154.375	64.2718
158.973	63.4844
163.566	74.2756
168.159	83.5569
172.75	84.0849
177.339	64.9651
181.923	39.7557
186.507	22.4113
191.089	15.3575
195.668	12.2379
200.243	15.2312
204.818	15.6481
209.391	14.7061
213.96	14.5963
218.528	12.4354
223.094	13.3003
227.655	15.6324
232.217	22.328
236.776	34.8528
241.331	48.1581
245.886	68.5038
250.439	85.5175
254.987	100.063
259.535	106.63
264.081	89.087
268.622	61.2431
273.164	38.416
277.703	28.5938
282.238	58.4406
286.773	112.071
291.305	116.779
295.833	95.0747
300.362	59.986
304.885	46.7754
309.409	42.4364
313.93	46.5194
318.448	54.1186
322.965	66.0989
327.477	82.1746
331.99	101.457
336.5	120.811
341.007	137.191
345.513	149.501
350.014	159.705
354.516	164.917
359.013	165.226
363.51	158.359
368.005	143.686
372.496	125.88
376.987	109.31
381.473	97.4828
385.96	90.1081
390.442	86.3374
394.923	90.8601
399.401	94.0015
403.879	93.6724
408.352	80.5556
412.825	65.0736
417.294	54.5832
421.763	48.6188
426.227	47.8211
430.692	51.1203
435.152	53.3453
439.612	54.7533
444.068	55.9808
448.524	57.5398
452.976	60.5886
457.427	66.3539
461.874	73.1895
466.32	79.757
470.765	85.5645
475.205	88.5309
479.646	90.6636
484.083	92.5753
488.519	95.424
492.951	94.6969
497.381	97.3103
501.811	101.187
506.237	107.287
510.663	114.951
515.084	119.502
519.504	122.748
523.923	118.59
528.338	109.35
532.753	98.3632
537.164	86.3908
541.572	74.6716
545.981	63.0643
550.385	52.252
554.788	41.9455
559.19	33.0361
563.588	27.4508
567.986	25.6905
572.38	30.458
576.771	45.3572
581.163	68.0756
585.551	94.7754
589.936	136.743
594.319	173.686
598.702	189.787
603.081	185.481
607.458	160.18
611.835	133.145
616.208	110.564
620.578	91.8563
624.949	76.1685
629.315	66.1429
633.68	60.2092
638.042	56.3795
642.404	53.4537
646.762	51.4749
651.118	45.5839
655.472	41.7533
659.825	40.56
664.175	41.8573
668.523	45.3192
672.868	50.5986
677.213	54.2867
681.555	56.2253
685.894	54.1812
690.231	48.5701
694.566	39.2509
698.901	29.6311
703.232	19.9743
707.561	12.9459
711.888	8.666

Note: README.md
# Buranga_magmatic-hydrothermal_transition
Repository to host the data and processing scripts for the manuscript dealing with the magmatic-hydrothermal transition in the Buranga pegmatite, western Rwanda

File: bu20-g-ff1-fi01_cls_carbonic phase.txt
#Imported=	29.03.2022 09:48:39
#Correction:Norma=	29.03.2022 10:00:12
#Data Range:Extract=	29.03.2022 10:00:58
#Math:AB=	29.03.2022 10:01:33
#Edit:Shape=	29.03.2022 10:02:32
#Edit:Shape=	29.03.2022 10:02:33
#Edit:Shape=	29.03.2022 10:02:37
#Edit:Shape=	29.03.2022 10:02:39
#Edit:Shape=	29.03.2022 10:02:40
#Edit:Shape=	29.03.2022 10:02:41
218.528	3.63072
236.776	4.83205
254.987	6.41203
273.164	4.83205
291.305	3.65171
309.409	1.6721
327.477	-1.0289
345.513	-0.586174
363.51	-1.29135
381.473	0.825619
399.401	0.442188
417.294	3.46768
435.152	3.80225
452.976	2.36058
470.765	0.669958
488.519	1.199
506.237	1.96411
523.923	2.95919
541.572	1.9085
559.19	1.7098
576.771	2.09369
594.319	2.46209
611.835	2.84051
629.315	2.29995
646.762	1.15446
664.175	2.53371
681.555	1.63562
698.901	3.49496
716.212	1.55466
733.493	1.98004
750.74	1.59922
767.952	0.969682
785.133	0.0921168
802.28	0.0921168
819.394	1.00186
836.478	2.16031
853.527	1.91663
870.544	1.02478
887.528	1.11506
904.481	1.43407
921.401	0.961028
938.287	0.789116
955.144	0.236635
971.968	1.04801
988.759	1.76651
1005.52	1.07999
1022.25	1.64006
1038.94	0.952249
1055.61	1.6721
1072.25	3.38017
1088.85	1.76907
1105.42	0.31155
1121.96	0.700054
1138.47	0.143618
1154.95	4.00122
1171.4	0.962825
1187.81	2.94191
1204.2	2.57669
1220.55	4.98637
1236.88	8.03683
1253.17	22.0762
1269.44	46.6003
1285.67	267.174
1301.87	24.4058
1318.05	17.4751
1334.19	16.6625
1350.3	17.0047
1366.39	37.8489
1382.44	481.324
1398.46	63.6216
1414.46	34.8278
1430.42	12.3632
1446.36	6.87991
1462.27	4.55779
1478.14	3.08186
1493.99	2.93605
1509.81	3.62262
1525.6	2.79951
1541.36	2.47702
1557.09	2.65332
1572.79	1.37881
1588.47	2.72901
1604.11	2.47967
1619.73	2.56204
1635.32	1.67767
1650.88	3.00317
1666.41	3.04174
1681.91	2.69352
1697.38	2.82489
1712.83	2.53188
1728.25	1.39036
1743.64	0.882061
1759	2.87671
1774.34	3.50858
1789.65	2.37222
1804.93	2.48735
1820.18	2.94338
1835.4	1.72886
1850.6	3.39034
1865.77	2.71815
1880.91	2.56154
1896.03	3.44928
1911.11	2.49105
1926.18	2.3325
1941.21	2.24007
1956.22	1.84488
1971.2	3.04569
1986.15	3.22494
2001.08	2.81671
2015.98	2.98649
2030.85	3.38427
2045.7	3.36941
2060.52	2.95221
2075.31	2.63712
2090.08	2.73115
2104.82	2.53553
2119.54	2.00076
2134.23	3.26445
2148.89	2.05508
2163.53	2.40241
2178.14	2.97267
2192.73	2.99524
2207.29	2.3146
2221.82	2.71282
2236.33	3.15041
2250.81	3.56162
2265.27	4.23811
2279.7	3.95057
2294.11	2.61315
2308.49	3.25235
2322.85	12.7801
2337.18	5.7384
2351.49	2.94427
2365.77	3.43449
2380.02	3.14633
2394.25	3.05254
2408.46	2.97046
2422.64	2.29308
2436.8	2.34148
2450.93	3.03302
2465.04	1.96004
2479.13	2.54988
2493.18	3.68539
2507.22	2.8805
2521.23	2.7388
2535.21	3.11579
2549.18	2.9333
2563.12	2.81083
2577.03	3.46553
2590.92	3.81685
2604.79	2.78676
2618.63	2.65294
2632.45	3.18312
2646.24	2.29364
2660.01	2.3117
2673.76	3.40335
2687.48	2.72805
2701.18	2.77863
2714.86	2.18507
2728.51	2.36639
2742.14	1.21623
2755.75	1.97186
2769.33	1.47275
2782.89	1.6833
2796.43	1.95383
2809.95	1.64918
2823.44	2.46851
2836.9	2.58961
2850.35	2.23025
2863.77	1.97119
2877.17	2.20153
2890.55	2.20547
2903.91	2.41749
2917.24	3.18035
2930.55	2.67756
2943.83	2.08633
2957.1	1.93705
2970.34	2.90913
2983.56	2.23221
2996.76	2.4449
3009.94	2.29536
3023.09	1.60075
3036.22	1.70862
3049.33	1.94237
3062.42	1.66467
3075.48	2.51465
3088.53	2.87133
3101.55	2.25337
3114.55	1.57547
3127.53	2.84719
3140.49	2.23571
3153.42	0.991349
3166.34	2.63573
3179.23	2.56657
3192.1	1.38885
3204.95	1.7224
3217.78	1.71856
3230.59	1.35829
3243.37	1.22079
3256.14	1.71381
3268.88	1.89715
3281.6	1.38608
3294.31	1.97376
3306.99	0.670248
3319.65	1.48709
3332.28	0.713711
3344.9	1.29386
3357.5	1.17875
3370.08	1.33911
3382.63	1.96309
3395.17	1.28653
3407.69	0.0921168
3420.18	0.0921168
3432.65	2.46209
3445.11	2.46209
3457.54	-0.262773
3469.95	-0.0993567
3482.35	0.673251
3494.72	2.49953
3507.07	1.83356
3519.41	1.6721
3531.72	-0.869594
3544.01	0.944988
3556.28	1.90699
3568.54	0.464462
3580.77	1.8505
3592.98	2.34751
3605.18	0.543507
3617.35	1.9725
3629.5	1.86047
3641.64	2.60692
3653.75	1.57591
3665.85	2.63567
3677.92	1.91813
3689.98	1.3319
3699.01	2.23541